Folder: CatSimMaintenance/phosim_flux/hacked_throughputs

File: m3.dat
# Ideal (no losses) protected aluminum mirror coating, V2, Date=March 7, 2011
# Wavelength(nm) Reflectance(0-1)
300.00 1.0
304.00 1.0
308.00 1.0
312.00 1.0
316.00 1.0
320.00 1.0
324.00 1.0
328.00 1.0
332.00 1.0
336.00 1.0
340.00 1.0
344.00 1.0
348.00 1.0
352.00 1.0
356.00 1.0
360.00 1.0
364.00 1.0
368.00 1.0
372.00 1.0
376.00 1.0
380.00 1.0
384.00 1.0
388.00 1.0
392.00 1.0
396.00 1.0
400.00 1.0
404.00 1.0
408.00 1.0
412.00 1.0
416.00 1.0
420.00 1.0
424.00 1.0
428.00 1.0
432.00 1.0
436.00 1.0
440.00 1.0
444.00 1.0
448.00 1.0
452.00 1.0
456.00 1.0
460.00 1.0
464.00 1.0
468.00 1.0
472.00 1.0
476.00 1.0
480.00 1.0
484.00 1.0
488.00 1.0
492.00 1.0
496.00 1.0
500.00 1.0
504.00 1.0
508.00 1.0
512.00 1.0
516.00 1.0
520.00 1.0
524.00 1.0
528.00 1.0
532.00 1.0
536.00 1.0
540.00 1.0
544.00 1.0
548.00 1.0
552.00 1.0
556.00 1.0
560.00 1.0
564.00 1.0
568.00 1.0
572.00 1.0
576.00 1.0
580.00 1.0
584.00 1.0
588.00 1.0
592.00 1.0
596.00 1.0
600.00 1.0
604.00 1.0
608.00 1.0
612.00 1.0
616.00 1.0
620.00 1.0
624.00 1.0
628.00 1.0
632.00 1.0
636.00 1.0
640.00 1.0
644.00 1.0
648.00 1.0
652.00 1.0
656.00 1.0
660.00 1.0
664.00 1.0
668.00 1.0
672.00 1.0
676.00 1.0
680.00 1.0
684.00 1.0
688.00 1.0
692.00 1.0
696.00 1.0
700.00 1.0
704.00 1.0
708.00 1.0
712.00 1.0
716.00 1.0
720.00 1.0
724.00 1.0
728.00 1.0
732.00 1.0
736.00 1.0
740.00 1.0
744.00 1.0
748.00 1.0
752.00 1.0
756.00 1.0
760.00 1.0
764.00 1.0
768.00 1.0
772.00 1.0
776.00 1.0
780.00 1.0
784.00 1.0
788.00 1.0
792.00 1.0
796.00 1.0
800.00 1.0
804.00 1.0
808.00 1.0
812.00 1.0
816.00 1.0
820.00 1.0
824.00 1.0
828.00 1.0
832.00 1.0
836.00 1.0
840.00 1.0
844.00 1.0
848.00 1.0
852.00 1.0
856.00 1.0
860.00 1.0
864.00 1.0
868.00 1.0
872.00 1.0
876.00 1.0
880.00 1.0
884.00 1.0
888.00 1.0
892.00 1.0
896.00 1.0
900.00 1.0
904.00 1.0
908.00 1.0
912.00 1.0
916.00 1.0
920.00 1.0
924.00 1.0
928.00 1.0
932.00 1.0
936.00 1.0
940.00 1.0
944.00 1.0
948.00 1.0
952.00 1.0
956.00 1.0
960.00 1.0
964.00 1.0
968.00 1.0
972.00 1.0
976.00 1.0
980.00 1.0
984.00 1.0
988.00 1.0
992.00 1.0
996.00 1.0
1000.0 1.0
1004.0 1.0
1008.0 1.0
1012.0 1.0
1016.0 1.0
1020.0 1.0
1024.0 1.0
1028.0 1.0
1032.0 1.0
1036.0 1.0
1040.0 1.0
1044.0 1.0
1048.0 1.0
1052.0 1.0
1056.0 1.0
1060.0 1.0
1064.0 1.0
1068.0 1.0
1072.0 1.0
1076.0 1.0
1080.0 1.0
1084.0 1.0
1088.0 1.0
1092.0 1.0
1096.0 1.0
1100.0 1.0
1104.0 1.0
1108.0 1.0
1112.0 1.0
1116.0 1.0
1120.0 1.0
1124.0 1.0
1128.0 1.0
1132.0 1.0
1136.0 1.0
1140.0 1.0
1144.0 1.0
1148.0 1.0
1152.0 1.0
1156.0 1.0
1160.0 1.0
1164.0 1.0
1168.0 1.0
1172.0 1.0
1176.0 1.0
1180.0 1.0
1184.0 1.0
1188.0 1.0
1192.0 1.0
1196.0 1.0
1200.0 1.0